File: CSV_TO_TGA/CSV_TO_TGA/G20_pi_2_64.csv
64
64
0
2
0
3.14159
2.57208,2.44416,2.33387,2.23243,2.13773,2.04868,1.96455,1.88483,1.80911,1.73707,1.66843,1.60296,1.54045,1.48072,1.42361,1.36896,1.31664,1.26654,1.21853,1.1725,1.12837,1.08604,1.04542,1.00644,0.969014,0.933076,0.898559,0.865399,0.833538,0.802918,0.773486,0.745191,0.717986,0.691825,0.666663,0.64246,0.619176,0.596773,0.575216,0.55447,0.534503,0.515283,0.496782,0.478969,0.461819,0.445304,0.429401,0.414085,0.399333,0.385124,0.371436,0.35825,0.345546,0.333306,0.321512,0.310147,0.299195,0.28864,0.278468,0.268663,0.259212,0.250102,0.24132,0.232854
2.53854,2.4118,2.30265,2.2023,2.10867,2.02063,1.93748,1.8587,1.7839,1.71273,1.64494,1.58028,1.51856,1.45959,1.40321,1.34927,1.29763,1.24818,1.2008,1.15539,1.11185,1.07009,1.03002,0.991565,0.95465,0.919205,0.885163,0.852463,0.821044,0.790852,0.761833,0.733937,0.707117,0.681326,0.656523,0.632666,0.609715,0.587635,0.566389,0.545944,0.526267,0.507328,0.489096,0.471545,0.454647,0.438376,0.422707,0.407618,0.393086,0.379088,0.365605,0.352616,0.340103,0.328047,0.316431,0.305238,0.294451,0.284057,0.274039,0.264384,0.255077,0.246107,0.23746,0.229124
2.44153,2.31822,2.21236,2.11519,2.02461,1.93952,1.85921,1.78317,1.71099,1.64237,1.57703,1.51473,1.45529,1.39851,1.34424,1.29234,1.24268,1.19513,1.14958,1.10594,1.0641,1.02399,0.985505,0.948582,0.913145,0.879126,0.84646,0.815088,0.784951,0.755995,0.72817,0.701426,0.675717,0.651,0.627232,0.604375,0.58239,0.561242,0.540896,0.521319,0.502481,0.484351,0.466901,0.450104,0.433935,0.418367,0.403378,0.388945,0.375046,0.36166,0.348768,0.336349,0.324387,0.312863,0.30176,0.291063,0.280756,0.270825,0.261254,0.25203,0.243141,0.234573,0.226315,0.218355
2.29121,2.17322,2.07249,1.98024,1.89441,1.8139,1.73799,1.66619,1.59811,1.53343,1.47189,1.41326,1.35735,1.30398,1.25299,1.20426,1.15765,1.11305,1.07034,1.02944,0.990245,0.952677,0.916655,0.882105,0.848958,0.817148,0.786614,0.757298,0.729146,0.702106,0.676129,0.651169,0.627182,0.604127,0.581963,0.560654,0.540164,0.520457,0.501504,0.483271,0.46573,0.448853,0.432613,0.416984,0.401941,0.387462,0.373524,0.360105,0.347186,0.334746,0.322767,0.311231,0.30012,0.289418,0.27911,0.26918,0.259614,0.250398,0.241518,0.232962,0.224717,0.216771,0.209114,0.201735
2.10239,1.99112,1.89686,1.81083,1.73099,1.65623,1.58588,1.51943,1.45651,1.39679,1.34003,1.28601,1.23455,1.18546,1.13861,1.09386,1.05109,1.01019,0.971055,0.933596,0.897724,0.86336,0.830428,0.798859,0.768587,0.739551,0.711694,0.68496,0.659299,0.634663,0.611006,0.588284,0.566457,0.545486,0.525334,0.505967,0.48735,0.469452,0.452244,0.435696,0.419782,0.404475,0.38975,0.375583,0.361953,0.348837,0.336215,0.324068,0.312375,0.30112,0.290284,0.279852,0.269808,0.260136,0.250822,0.241852,0.233213,0.224891,0.216876,0.209154,0.201716,0.194549,0.187644,0.180991
1.892,1.78827,1.70124,1.62219,1.54905,1.48075,1.41661,1.35615,1.29899,1.24482,1.19342,1.14455,1.09805,1.05375,1.01151,0.97121,0.932726,0.895957,0.860807,0.827189,0.795021,0.764228,0.734741,0.706494,0.679426,0.65348,0.628603,0.604744,0.581857,0.559896,0.53882,0.518589,0.499164,0.480512,0.462597,0.445388,0.428854,0.412966,0.397698,0.383022,0.368914,0.35535,0.342308,0.329766,0.317704,0.306102,0.294941,0.284203,0.273872,0.263931,0.254364,0.245157,0.236295,0.227764,0.219552,0.211647,0.204035,0.196706,0.189648,0.182852,0.176306,0.170002,0.16393,0.158081
1.67637,1.58043,1.50089,1.42904,1.36282,1.30119,1.24346,1.18916,1.13793,1.08949,1.04359,1.00003,0.958632,0.919254,0.881757,0.846022,0.81194,0.779413,0.748353,0.718676,0.690307,0.663176,0.63722,0.612376,0.588591,0.56581,0.543984,0.523069,0.50302,0.483797,0.465361,0.447677,0.430709,0.414426,0.398798,0.383794,0.369387,0.355553,0.342265,0.3295,0.317236,0.305452,0.294127,0.283242,0.272778,0.262719,0.253047,0.243747,0.234803,0.2262,0.217926,0.209966,0.202308,0.19494,0.18785,0.181027,0.174461,0.168141,0.162058,0.156202,0.150565,0.145138,0.139912,0.13488
1.46915,1.3808,1.30853,1.24367,1.18416,1.12898,1.07746,1.02913,0.98365,0.940733,0.900151,0.861712,0.825248,0.790618,0.757693,0.726361,0.696521,0.66808,0.640956,0.615071,0.590357,0.566748,0.544185,0.522613,0.501979,0.482237,0.463341,0.44525,0.427924,0.411325,0.395421,0.380177,0.365562,0.351549,0.338108,0.325215,0.312845,0.300974,0.28958,0.278642,0.26814,0.258056,0.248371,0.239068,0.230131,0.221545,0.213294,0.205365,0.197744,0.190418,0.183375,0.176604,0.170093,0.163833,0.157811,0.15202,0.146449,0.14109,0.135934,0.130973,0.1262,0.121606,0.117186,0.112931
1.28003,1.19869,1.13316,1.07475,1.02145,0.972221,0.926421,0.883595,0.843401,0.805568,0.769876,0.73614,0.704202,0.673927,0.645194,0.617896,0.59194,0.567238,0.543714,0.521297,0.499922,0.479529,0.460064,0.441476,0.423718,0.406746,0.390519,0.375,0.360152,0.345943,0.33234,0.319315,0.30684,0.294888,0.283435,0.272458,0.261935,0.251845,0.242169,0.232887,0.223982,0.215438,0.207238,0.199368,0.191813,0.184559,0.177593,0.170904,0.164478,0.158306,0.152376,0.146679,0.141204,0.135942,0.130885,0.126024,0.12135,0.116857,0.112537,0.108383,0.104387,0.100545,0.0968488,0.0932936
1.11439,1.03933,0.979794,0.927132,0.879337,0.835394,0.794668,0.756713,0.721197,0.687858,0.656485,0.626901,0.598955,0.572517,0.547475,0.523727,0.501185,0.479769,0.459407,0.440032,0.421585,0.404011,0.387259,0.371283,0.35604,0.34149,0.327595,0.314322,0.301637,0.289512,0.277917,0.266825,0.256213,0.246056,0.236333,0.227023,0.218106,0.209564,0.20138,0.193536,0.186017,0.178809,0.171897,0.165268,0.15891,0.15281,0.146957,0.14134,0.135949,0.130775,0.125807,0.121037,0.116456,0.112057,0.107832,0.103773,0.0998742,0.0961278,0.0925278,0.0890682,0.0857432,0.0825473,0.0794751,0.0765216
0.973862,0.904246,0.849911,0.802219,0.759182,0.719798,0.68344,0.649675,0.618178,0.588696,0.561026,0.534996,0.510464,0.487306,0.465415,0.444695,0.425064,0.406445,0.388772,0.371984,0.356024,0.340842,0.326391,0.31263,0.299516,0.287016,0.275094,0.263719,0.252862,0.242496,0.232594,0.223133,0.21409,0.205445,0.197178,0.189269,0.181703,0.174461,0.167529,0.160892,0.154536,0.148447,0.142614,0.137025,0.131669,0.126534,0.121611,0.116891,0.112365,0.108023,0.103858,0.0998616,0.0960271,0.0923473,0.0888153,0.0854249,0.08217,0.0790448,0.0760438,0.0731618,0.0703938,0.067735,0.0651807,0.0627267
0.857272,0.7923,0.742387,0.698915,0.65991,0.624381,0.591712,0.561479,0.533367,0.507128,0.482566,0.459517,0.437845,0.41743,0.398172,0.37998,0.362775,0.346487,0.331053,0.316415,0.302521,0.289324,0.276782,0.264854,0.253504,0.242699,0.232407,0.222599,0.21325,0.204333,0.195826,0.187707,0.179955,0.172553,0.165481,0.158723,0.152264,0.146088,0.140182,0.134533,0.129127,0.123955,0.119003,0.114263,0.109724,0.105377,0.101213,0.0972228,0.0933997,0.0897356,0.0862234,0.0828563,0.0796278,0.0765318,0.0735624,0.0707141,0.0679815,0.0653597,0.0628439,0.0604294,0.058112,0.0558875,0.0537519,0.0517014
0.761766,0.700724,0.654539,0.614615,0.578993,0.546692,0.517107,0.489821,0.464526,0.440984,0.419003,0.398425,0.37912,0.360974,0.343889,0.327782,0.312576,0.298205,0.28461,0.271736,0.259536,0.247965,0.236984,0.226555,0.216644,0.207221,0.198258,0.189726,0.181603,0.173865,0.16649,0.15946,0.152755,0.146358,0.140254,0.134426,0.128862,0.123547,0.118468,0.113615,0.108976,0.10454,0.100298,0.0962404,0.092358,0.0886427,0.0850867,0.0816825,0.0784229,0.0753014,0.0723115,0.0694472,0.0667029,0.0640731,0.0615527,0.0591367,0.0568205,0.0545998,0.0524701,0.0504277,0.0484686,0.0465893,0.0447862,0.0430562
0.683809,0.62609,0.583047,0.546106,0.513318,0.483716,0.456703,0.43187,0.408917,0.387612,0.367768,0.349233,0.331882,0.315605,0.30031,0.285915,0.272349,0.259549,0.247459,0.236029,0.225211,0.214967,0.205257,0.196047,0.187307,0.179006,0.17112,0.163622,0.156491,0.149705,0.143246,0.137094,0.131233,0.125647,0.120321,0.115242,0.110396,0.105771,0.101357,0.0971416,0.0931157,0.0892696,0.0855943,0.0820815,0.0787232,0.0755119,0.0724406,0.0695026,0.0666915,0.0640013,0.0614265,0.0589615,0.0566014,0.0543413,0.0521766,0.050103,0.0481163,0.0462126,0.0443882,0.0426396,0.0409634,0.0393563,0.0378154,0.0363378
0.619899,0.565008,0.524629,0.490207,0.459809,0.432475,0.407619,0.38484,0.363842,0.344401,0.326334,0.309497,0.293765,0.279035,0.265219,0.252237,0.240023,0.228516,0.217663,0.207416,0.197732,0.188572,0.179901,0.171687,0.163901,0.156515,0.149505,0.142847,0.136522,0.130509,0.124791,0.11935,0.114171,0.109239,0.104542,0.100065,0.0957985,0.0917299,0.0878491,0.0841464,0.0806127,0.0772393,0.0740182,0.0709417,0.0680026,0.0651942,0.0625099,0.0599439,0.0574904,0.055144,0.0528995,0.0507522,0.0486975,0.046731,0.0448487,0.0430467,0.0413211,0.0396687,0.0380859,0.0365697,0.0351171,0.0337252,0.0323913,0.0311127
0.566969,0.514513,0.476416,0.444145,0.415781,0.390373,0.367344,0.3463,0.326952,0.309078,0.292506,0.277091,0.262715,0.249278,0.236694,0.22489,0.2138,0.203366,0.193539,0.184272,0.175526,0.167263,0.159449,0.152056,0.145054,0.13842,0.132129,0.126161,0.120496,0.115115,0.110003,0.105143,0.10052,0.0961223,0.0919363,0.0879505,0.084154,0.0805366,0.0770888,0.0738015,0.0706663,0.0676755,0.0648215,0.0620974,0.0594966,0.057013,0.0546407,0.0523742,0.0502083,0.0481382,0.0461591,0.0442668,0.042457,0.0407259,0.0390698,0.037485,0.0359684,0.0345167,0.0331269,0.0317962,0.0305219,0.0293015,0.0281324,0.0270124
0.522548,0.472214,0.436096,0.405685,0.379073,0.355321,0.333859,0.314299,0.296358,0.279821,0.264518,0.25031,0.237083,0.22474,0.213198,0.202386,0.192242,0.182711,0.173745,0.165301,0.157339,0.149826,0.142728,0.136019,0.129672,0.123664,0.117971,0.112575,0.107458,0.102601,0.0979904,0.0936104,0.0894479,0.0854905,0.0817264,0.0781448,0.0747356,0.0714894,0.0683973,0.065451,0.0626429,0.0599655,0.0574122,0.0549765,0.0526524,0.0504341,0.0483164,0.0462943,0.0443629,0.0425178,0.0407548,0.0390698,0.0374591,0.0359192,0.0344466,0.0330382,0.0316908,0.0304018,0.0291682,0.0279876,0.0268575,0.0257755,0.0247395,0.0237474
0.484746,0.436281,0.401903,0.373119,0.348036,0.325725,0.305622,0.287347,0.270623,0.255238,0.241029,0.227859,0.215617,0.204211,0.19356,0.183596,0.174259,0.165497,0.157264,0.149518,0.142222,0.135344,0.128853,0.122722,0.116928,0.111447,0.106259,0.101345,0.0966877,0.0922716,0.0880817,0.0841044,0.0803273,0.0767385,0.0733272,0.0700833,0.0669975,0.0640609,0.0612653,0.0586031,0.056067,0.0536505,0.0513469,0.0491506,0.047056,0.0450578,0.043151,0.0413311,0.0395937,0.0379347,0.0363502,0.0348364,0.03339,0.0320077,0.0306864,0.0294231,0.0282151,0.0270598,0.0259546,0.0248973,0.0238855,0.0229173,0.0219904,0.0211032
0.452156,0.40536,0.372525,0.345181,0.321447,0.300403,0.281494,0.264344,0.248684,0.234305,0.221048,0.20878,0.197394,0.186799,0.17692,0.167688,0.159048,0.150949,0.143346,0.1362,0.129477,0.123143,0.117172,0.111537,0.106215,0.101185,0.0964272,0.0919241,0.0876593,0.0836179,0.0797861,0.076151,0.0727009,0.0694248,0.0663126,0.0633547,0.0605425,0.0578677,0.0553226,0.0529002,0.0505937,0.0483968,0.0463038,0.0443091,0.0424076,0.0405943,0.0388648,0.0372148,0.0356402,0.0341372,0.0327022,0.0313319,0.030023,0.0287725,0.0275777,0.0264357,0.0253441,0.0243005,0.0233024,0.0223479,0.0214348,0.0205612,0.0197253,0.0189253
0.423744,0.378451,0.346998,0.32094,0.298407,0.278489,0.260637,0.244483,0.229761,0.216268,0.203848,0.192372,0.181737,0.171853,0.162648,0.154056,0.146024,0.138502,0.131448,0.124824,0.118596,0.112736,0.107214,0.102008,0.0970948,0.0924541,0.0880672,0.0839188,0.0799921,0.0762733,0.0727494,0.0694083,0.0662391,0.0632313,0.0603755,0.0576627,0.0550847,0.0526339,0.050303,0.0480855,0.045975,0.0439657,0.0420522,0.0402293,0.0384922,0.0368364,0.0352577,0.0337521,0.0323158,0.0309453,0.0296373,0.0283887,0.0271964,0.0260577,0.02497,0.0239308,0.0229377,0.0219885,0.021081,0.0202134,0.0193836,0.01859,0.0178307,0.0171043
0.398744,0.354812,0.324608,0.299707,0.278251,0.259341,0.242434,0.227167,0.21328,0.200575,0.188897,0.178122,0.16815,0.158894,0.150283,0.142255,0.134757,0.127742,0.121169,0.115003,0.10921,0.103763,0.0986354,0.0938035,0.0892466,0.0849454,0.0808825,0.0770419,0.0734091,0.0699706,0.0667141,0.0636282,0.0607025,0.0579272,0.0552934,0.0527926,0.0504172,0.0481599,0.0460141,0.0439734,0.042032,0.0401844,0.0384255,0.0367506,0.035155,0.0336347,0.0321857,0.0308042,0.0294867,0.02823,0.027031,0.0258867,0.0247944,0.0237515,0.0227555,0.0218042,0.0208954,0.020027,0.019197,0.0184036,0.017645,0.0169196,0.0162259,0.0155623
0.376575,0.333886,0.304817,0.280962,0.26048,0.242478,0.22642,0.211949,0.198809,0.186808,0.175793,0.165643,0.156261,0.147563,0.13948,0.131952,0.124927,0.118361,0.112214,0.106452,0.101043,0.09596,0.0911786,0.0866762,0.0824326,0.0784297,0.0746507,0.0710806,0.0677054,0.0645124,0.0614899,0.0586272,0.0559144,0.0533422,0.0509021,0.0485864,0.0463876,0.044299,0.0423143,0.0404275,0.0386332,0.0369262,0.0353017,0.0337553,0.0322827,0.0308799,0.0295433,0.0282694,0.0270549,0.0258968,0.024792,0.0237381,0.0227323,0.0217722,0.0208556,0.0199803,0.0191442,0.0183455,0.0175824,0.016853,0.0161558,0.0154893,0.014852,0.0142425
0.35679,0.315242,0.287208,0.264307,0.244708,0.227527,0.212237,0.198484,0.186018,0.174649,0.164228,0.15464,0.145786,0.137587,0.129975,0.122893,0.11629,0.110123,0.104355,0.0989513,0.0938831,0.0891237,0.0846492,0.0804385,0.0764723,0.072733,0.0692049,0.0658735,0.0627256,0.0597491,0.0569328,0.0542667,0.0517411,0.0493475,0.0470778,0.0449246,0.0428809,0.0409403,0.0390969,0.0373451,0.0356797,0.0340959,0.032589,0.0311551,0.0297899,0.0284899,0.0272516,0.0260717,0.0249471,0.0238749,0.0228525,0.0218773,0.0209469,0.020059,0.0192114,0.0184023,0.0176296,0.0168916,0.0161866,0.0155129,0.0148691,0.0142538,0.0136654,0.0131029
0.339036,0.298539,0.271454,0.249425,0.230632,0.214199,0.199604,0.186502,0.174645,0.163847,0.153964,0.14488,0.136502,0.128751,0.121562,0.114879,0.108654,0.102845,0.0974151,0.0923322,0.0875679,0.0830967,0.0788958,0.0749449,0.0712253,0.0677205,0.0644152,0.0612958,0.0583495,0.0555649,0.0529314,0.0504393,0.0480796,0.045844,0.0437249,0.0417153,0.0398086,0.0379987,0.03628,0.0346472,0.0330954,0.0316201,0.0302169,0.0288819,0.0276114,0.0264018,0.0252498,0.0241525,0.0231069,0.0221103,0.0211602,0.0202541,0.0193898,0.0185652,0.0177783,0.0170271,0.01631,0.0156251,0.014971,0.0143461,0.013749,0.0131784,0.012633,0.0121115
0.32303,0.283504,0.257294,0.236064,0.218008,0.202257,0.188298,0.175788,0.164484,0.154204,0.144806,0.136179,0.12823,0.120884,0.114077,0.107754,0.101868,0.0963805,0.0912545,0.0864593,0.0819674,0.0777544,0.0737984,0.0700797,0.0665807,0.0632852,0.060179,0.0572486,0.0544822,0.0518686,0.0493978,0.0470606,0.0448483,0.0427532,0.040768,0.038886,0.0371009,0.035407,0.0337989,0.0322717,0.0308206,0.0294414,0.02813,0.0268826,0.0256958,0.0245661,0.0234906,0.0224663,0.0214905,0.0205607,0.0196743,0.0188293,0.0180233,0.0172546,0.0165211,0.015821,0.0151528,0.0145148,0.0139056,0.0133236,0.0127676,0.0122364,0.0117287,0.0112434
0.30854,0.269914,0.244511,0.224018,0.206638,0.191513,0.178134,0.166164,0.155365,0.145556,0.1366,0.128388,0.120828,0.113848,0.107386,0.101388,0.0958099,0.0906118,0.0857597,0.0812236,0.076977,0.0729963,0.0692603,0.0657503,0.0624491,0.0593416,0.0564136,0.0536527,0.0510472,0.0485867,0.0462615,0.0440628,0.0419824,0.0400127,0.038147,0.0363788,0.0347022,0.0331117,0.0316022,0.030169,0.0288076,0.0275139,0.0262842,0.0251148,0.0240024,0.0229438,0.0219362,0.0209767,0.0200629,0.0191923,0.0183626,0.0175716,0.0168175,0.0160982,0.0154121,0.0147573,0.0141325,0.013536,0.0129664,0.0124225,0.0119029,0.0114065,0.0109322,0.0104788
0.295375,0.257587,0.232931,0.213117,0.19636,0.18181,0.168963,0.157488,0.147149,0.137771,0.129218,0.121383,0.114178,0.107531,0.101381,0.0956785,0.0903783,0.0854426,0.0808384,0.0765365,0.0725114,0.0687403,0.0652028,0.0618809,0.058758,0.0558196,0.0530522,0.0504436,0.0479829,0.0456599,0.0434654,0.0413909,0.0394288,0.0375717,0.0358131,0.0341469,0.0325674,0.0310695,0.0296482,0.028299,0.0270178,0.0258006,0.0246439,0.0235441,0.0224981,0.021503,0.020556,0.0196544,0.0187959,0.017978,0.0171988,0.0164561,0.0157481,0.0150729,0.0144289,0.0138145,0.0132283,0.0126687,0.0121344,0.0116243,0.0111371,0.0106717,0.010227,0.00980202
0.283375,0.246367,0.222405,0.203219,0.187038,0.173017,0.160659,0.149638,0.139722,0.130738,0.122553,0.115062,0.10818,0.101837,0.0959727,0.0905382,0.0854908,0.0807934,0.076414,0.0723246,0.0685002,0.0649189,0.0615611,0.0584092,0.0554476,0.0526619,0.0500394,0.0475683,0.0452381,0.0430391,0.0409624,0.0389999,0.0371442,0.0353884,0.0337262,0.0321517,0.0306595,0.0292448,0.0279027,0.026629,0.0254198,0.0242713,0.02318,0.0221426,0.0211563,0.020218,0.0193253,0.0184755,0.0176664,0.0168959,0.0161618,0.0154623,0.0147955,0.0141598,0.0135535,0.0129751,0.0124233,0.0118967,0.011394,0.0109141,0.0104558,0.010018,0.00959978,0.00920017
0.272406,0.236127,0.212809,0.194207,0.178557,0.165025,0.153118,0.142515,0.132987,0.124364,0.116517,0.109342,0.102755,0.0966889,0.0910851,0.0858953,0.0810782,0.0765979,0.0724231,0.0685268,0.0648848,0.0614759,0.0582812,0.0552836,0.0524681,0.0498209,0.0473296,0.044983,0.0427709,0.040684,0.0387138,0.0368525,0.0350929,0.0334285,0.0318532,0.0303615,0.0289481,0.0276083,0.0263377,0.025132,0.0239876,0.0229009,0.0218685,0.0208873,0.0199546,0.0190674,0.0182235,0.0174203,0.0166557,0.0159277,0.0152341,0.0145734,0.0139436,0.0133433,0.0127708,0.0122248,0.0117039,0.0112069,0.0107325,0.0102796,0.00984716,0.00943417,0.00903966,0.00866275
0.262353,0.226756,0.20404,0.185978,0.170821,0.157741,0.146251,0.136033,0.126862,0.118572,0.111035,0.104149,0.0978335,0.0920209,0.0866552,0.0816893,0.0770824,0.0728003,0.0688123,0.065092,0.0616162,0.0583643,0.0553179,0.0524607,0.049778,0.0472566,0.0448845,0.0426509,0.0405459,0.0385607,0.036687,0.0349174,0.0332449,0.0316633,0.0301667,0.0287499,0.0274077,0.0261357,0.0249296,0.0237855,0.0226996,0.0216687,0.0206895,0.019759,0.0188746,0.0180336,0.0172337,0.0164725,0.015748,0.0150582,0.0144013,0.0137754,0.013179,0.0126105,0.0120685,0.0115516,0.0110586,0.0105881,0.0101392,0.00971064,0.00930149,0.00891077,0.00853759,0.00818107
0.25312,0.218161,0.196006,0.178448,0.163749,0.151087,0.139982,0.13012,0.121279,0.113295,0.106043,0.0994235,0.0933566,0.0877769,0.0826297,0.0778687,0.0734547,0.0693537,0.0655363,0.0619769,0.0586529,0.0555442,0.0526332,0.0499039,0.0473423,0.0449354,0.0426718,0.040541,0.0385335,0.0366408,0.0348548,0.0331684,0.0315751,0.0300686,0.0286435,0.0272945,0.026017,0.0248065,0.0236589,0.0225704,0.0215376,0.0205572,0.0196262,0.0187417,0.017901,0.0171018,0.0163416,0.0156185,0.0149302,0.014275,0.0136511,0.0130568,0.0124905,0.0119508,0.0114363,0.0109457,0.0104777,0.0100313,0.00960534,0.00919875,0.00881061,0.00843998,0.00808602,0.0077479
0.244622,0.210263,0.188631,0.171542,0.157268,0.144995,0.134247,0.124714,0.116178,0.108477,0.101487,0.0951129,0.089275,0.0839095,0.0789628,0.07439,0.0701527,0.0662178,0.0625568,0.0591447,0.0559595,0.0529819,0.0501946,0.0475822,0.0451311,0.0428288,0.0406642,0.0386271,0.0367085,0.0349,0.033194,0.0315835,0.0300621,0.0286241,0.0272639,0.0259767,0.0247579,0.0236033,0.0225089,0.021471,0.0204864,0.0195519,0.0186646,0.0178217,0.0170208,0.0162594,0.0155354,0.0148466,0.0141912,0.0135674,0.0129734,0.0124077,0.0118687,0.011355,0.0108654,0.0103986,0.00995344,0.00952875,0.00912354,0.00873682,0.00836767,0.00801522,0.00767864,0.00735716
0.236787,0.20299,0.181848,0.165197,0.15132,0.139407,0.128991,0.119762,0.111508,0.104068,0.0973212,0.0911728,0.0855459,0.0803775,0.0756155,0.0712157,0.0671407,0.0633584,0.0598409,0.0565639,0.053506,0.0506485,0.0479744,0.0454691,0.0431191,0.0409124,0.0388383,0.036887,0.0350496,0.033318,0.0316849,0.0301436,0.028688,0.0273123,0.0260114,0.0247805,0.0236152,0.0225115,0.0214655,0.0204737,0.019533,0.0186402,0.0177927,0.0169877,0.0162229,0.0154959,0.0148047,0.0141473,0.0135217,0.0129264,0.0123596,0.0118198,0.0113056,0.0108156,0.0103486,0.00990341,0.00947885,0.00907388,0.00868752,0.00831883,0.00796691,0.00763094,0.00731012,0.00700371
0.229553,0.196284,0.175601,0.159358,0.145849,0.134273,0.124164,0.115218,0.107225,0.100026,0.0935042,0.0875647,0.0821325,0.0771459,0.072554,0.0683135,0.064388,0.060746,0.0573604,0.0542075,0.0512665,0.0485191,0.0459491,0.0435418,0.0412845,0.0391655,0.0371743,0.0353014,0.0335383,0.0318771,0.0303107,0.0288327,0.0274371,0.0261184,0.0248717,0.0236922,0.0225758,0.0215185,0.0205167,0.019567,0.0186662,0.0178115,0.0170002,0.0162298,0.0154979,0.0148023,0.014141,0.0135121,0.0129137,0.0123443,0.0118023,0.0112861,0.0107945,0.010326,0.0098796,0.00945403,0.00904823,0.00866119,0.00829197,0.00793965,0.0076034,0.0072824,0.00697591,0.0066832
0.222863,0.190092,0.169838,0.153977,0.140812,0.129548,0.119725,0.111042,0.10329,0.0963159,0.0900015,0.0842551,0.0790028,0.0741842,0.0697491,0.0656556,0.0618678,0.0583551,0.0550909,0.0520522,0.0492187,0.0465725,0.0440979,0.0417808,0.0396086,0.03757,0.0356548,0.0338539,0.0321588,0.0305622,0.0290569,0.0276369,0.0262962,0.0250297,0.0238325,0.0227001,0.0216284,0.0206136,0.0196521,0.0187408,0.0178766,0.0170568,0.0162786,0.0155397,0.0148378,0.0141709,0.0135368,0.0129339,0.0123604,0.0118147,0.0112952,0.0108006,0.0103295,0.00988069,0.00945301,0.00904533,0.00865663,0.00828594,0.00793233,0.00759494,0.00727295,0.0069656,0.00667214,0.00639191
0.216671,0.184367,0.164515,0.149012,0.136168,0.125195,0.115637,0.107198,0.0996713,0.0929046,0.0867827,0.0812151,0.0761292,0.0714657,0.0671756,0.0632177,0.0595569,0.0561634,0.0530111,0.0500775,0.047343,0.0447901,0.0424033,0.0401691,0.0380752,0.0361104,0.034265,0.0325302,0.0308976,0.0293602,0.027911,0.0265441,0.0252539,0.0240352,0.0228834,0.021794,0.0207633,0.0197873,0.0188629,0.0179868,0.017156,0.016368,0.0156201,0.0149101,0.0142357,0.0135949,0.0129859,0.0124067,0.0118559,0.0113318,0.0108329,0.010358,0.00990569,0.00947482,0.00906425,0.00867292,0.00829984,0.00794406,0.0076047,0.00728093,0.00697196,0.00667705,0.0063955,0.00612665
0.210933,0.179069,0.159595,0.144425,0.131881,0.121179,0.111869,0.103657,0.0963387,0.0897647,0.0838212,0.0784191,0.0734872,0.0689673,0.0648113,0.0609786,0.0574352,0.0541516,0.0511026,0.048266,0.0456227,0.0431556,0.0408498,0.0386919,0.0366699,0.0347731,0.032992,0.0313178,0.0297428,0.0282597,0.0268621,0.025544,0.0243,0.0231252,0.0220151,0.0209653,0.0199721,0.0190318,0.0181413,0.0172974,0.0164974,0.0157385,0.0150184,0.0143348,0.0136856,0.0130688,0.0124825,0.0119252,0.0113951,0.0108908,0.0104108,0.00995387,0.00951875,0.00910428,0.00870937,0.00833299,0.00797419,0.00763204,0.00730571,0.00699439,0.00669732,0.00641378,0.00614311,0.00588465
0.205612,0.174163,0.155042,0.140185,0.12792,0.117472,0.108392,0.100391,0.0932667,0.0868715,0.0810935,0.075845,0.0710558,0.0666688,0.0626367,0.0589199,0.0554849,0.0523029,0.0493492,0.0466022,0.044043,0.0416551,0.0394239,0.0373362,0.0353805,0.0335464,0.0318244,0.0302061,0.028684,0.0272509,0.0259006,0.0246274,0.023426,0.0222916,0.0212197,0.0202062,0.0192475,0.01834,0.0174806,0.0166663,0.0158944,0.0151623,0.0144677,0.0138083,0.0131822,0.0125873,0.0120221,0.0114847,0.0109736,0.0104874,0.0100248,0.00958433,0.00916495,0.00876551,0.00838493,0.00802224,0.00767651,0.00734685,0.00703245,0.00673252,0.00644634,0.00617321,0.00591249,0.00566355
0.200676,0.169616,0.150827,0.136262,0.124259,0.114047,0.105182,0.0973767,0.0904326,0.0842036,0.0785792,0.073473,0.0688161,0.0645522,0.0606349,0.0570253,0.0536906,0.0506025,0.0477368,0.0450724,0.042591,0.0402762,0.0381137,0.0360909,0.0341963,0.0324199,0.0307524,0.0291856,0.0277121,0.0263251,0.0250185,0.0237866,0.0226243,0.021527,0.0204902,0.0195102,0.0185832,0.0177058,0.016875,0.0160879,0.0153418,0.0146343,0.0139631,0.013326,0.012721,0.0121464,0.0116003,0.0110812,0.0105876,0.0101181,0.00967128,0.00924598,0.00884104,0.00845537,0.00808794,0.00773781,0.00740406,0.00708584,0.00678237,0.00649289,0.00621669,0.0059531,0.00570149,0.00546126
0.196094,0.165401,0.146923,0.132631,0.120872,0.11088,0.102215,0.094593,0.0878165,0.0817419,0.0762601,0.071286,0.0667516,0.0626018,0.0587908,0.0552804,0.0520385,0.0490372,0.0462529,0.043665,0.0412553,0.0390079,0.036909,0.034946,0.0331078,0.0313846,0.0297673,0.028248,0.0268194,0.0254748,0.0242083,0.0230144,0.0218882,0.020825,0.0198207,0.0188713,0.0179735,0.0171238,0.0163193,0.0155572,0.0148349,0.01415,0.0135002,0.0128836,0.0122981,0.011742,0.0112136,0.0107114,0.0102338,0.00977951,0.00934728,0.00893588,0.00854419,0.00817116,0.0078158,0.00747718,0.00715442,0.00684671,0.00655327,0.00627337,0.00600632,0.00575148,0.00550823,0.005276
0.191841,0.161493,0.143306,0.12927,0.117739,0.107952,0.0994736,0.0920214,0.0854007,0.0794695,0.0741201,0.0692685,0.0648478,0.0608037,0.0570911,0.0536726,0.0505165,0.0475956,0.0448866,0.0423692,0.0400258,0.0378408,0.0358005,0.0338927,0.0321066,0.0304324,0.0288615,0.027386,0.0259987,0.0246932,0.0234637,0.0223049,0.0212119,0.0201801,0.0192056,0.0182846,0.0174136,0.0165894,0.0158091,0.01507,0.0143695,0.0137054,0.0130754,0.0124776,0.01191,0.011371,0.0108588,0.010372,0.00990914,0.00946891,0.00905006,0.00865142,0.00827191,0.00791049,0.00756621,0.00723817,0.00692551,0.00662744,0.0063432,0.0060721,0.00581345,0.00556664,0.00533106,0.00510617
0.187894,0.157869,0.139955,0.126158,0.11484,0.105245,0.0969393,0.0896453,0.0831695,0.0773715,0.072145,0.0674071,0.0630918,0.0591455,0.0555242,0.0521908,0.0491141,0.0462675,0.0436281,0.041176,0.0388938,0.0367664,0.0347802,0.0329234,0.0311853,0.0295565,0.0280283,0.0265931,0.0252439,0.0239745,0.0227792,0.0216526,0.0205902,0.0195874,0.0186403,0.0177454,0.0168991,0.0160984,0.0153404,0.0146224,0.0139421,0.0132971,0.0126853,0.0121048,0.0115536,0.0110303,0.010533,0.0100604,0.00961113,0.0091838,0.00877726,0.00839035,0.00802202,0.00767128,0.00733718,0.00701885,0.00671547,0.00642626,0.00615048,0.00588745,0.00563652,0.00539708,0.00516855,0.00495039
0.18423,0.154509,0.136851,0.123277,0.112158,0.102741,0.094597,0.08745,0.0811089,0.0754346,0.070322,0.0656895,0.0614719,0.0576164,0.0540795,0.0508248,0.0478216,0.0450438,0.0424687,0.0400769,0.0378514,0.0357771,0.033841,0.0320312,0.0303375,0.0287504,0.0272616,0.0258637,0.0245497,0.0233135,0.0221496,0.0210528,0.0200185,0.0190425,0.0181207,0.0172497,0.0164262,0.0156471,0.0149096,0.0142112,0.0135493,0.0129219,0.0123269,0.0117623,0.0112263,0.0107173,0.0102338,0.00977432,0.00933747,0.00892201,0.00852677,0.00815065,0.00779261,0.00745167,0.00712693,0.00681754,0.00652268,0.0062416,0.0059736,0.00571799,0.00547415,0.00524148,0.00501943,0.00480746
0.180832,0.151396,0.133977,0.120612,0.109677,0.100426,0.0924327,0.0854224,0.0792063,0.0736468,0.06864,0.0641052,0.0599781,0.0562066,0.0527479,0.049566,0.0466308,0.0439164,0.0414008,0.0390648,0.0368915,0.0348664,0.0329764,0.0312101,0.0295573,0.0280087,0.0265564,0.0251927,0.0239112,0.0227057,0.0215707,0.0205013,0.019493,0.0185415,0.0176431,0.0167942,0.0159916,0.0152324,0.0145138,0.0138333,0.0131885,0.0125773,0.0119976,0.0114477,0.0109256,0.0104299,0.00995905,0.00951156,0.00908616,0.00868161,0.00829678,0.00793057,0.00758198,0.00725006,0.00693392,0.00663273,0.00634571,0.00607211,0.00581124,0.00556245,0.00532513,0.00509868,0.00488257,0.00467628
0.177683,0.148514,0.131318,0.118147,0.107385,0.0982883,0.0904342,0.0835509,0.0774507,0.0719976,0.0670888,0.0626445,0.0586011,0.0549074,0.0515209,0.0484064,0.045534,0.0428784,0.0404177,0.0381331,0.0360081,0.0340283,0.0321809,0.0304547,0.0288396,0.0273266,0.0259077,0.0245757,0.023324,0.0221468,0.0210385,0.0199944,0.01901,0.0180811,0.0172042,0.0163756,0.0155923,0.0148514,0.0141502,0.0134862,0.0128571,0.0122607,0.0116952,0.0111587,0.0106495,0.010166,0.00970673,0.0092703,0.00885542,0.00846091,0.00808563,0.00772853,0.00738863,0.00706499,0.00675676,0.00646311,0.00618328,0.00591655,0.00566224,0.00541972,0.00518838,0.00496765,0.004757,0.00455593
0.174767,0.145848,0.12886,0.11587,0.105268,0.0963151,0.0885905,0.0818248,0.0758321,0.0704775,0.0656594,0.0612988,0.0573329,0.0537111,0.0503914,0.047339,0.0445246,0.0419232,0.0395132,0.0372761,0.0351956,0.0332576,0.0314494,0.0297601,0.0281798,0.0266996,0.0253116,0.0240087,0.0227845,0.0216332,0.0205496,0.0195287,0.0185663,0.0176583,0.016801,0.0159912,0.0152256,0.0145016,0.0138163,0.0131675,0.0125528,0.0119701,0.0114177,0.0108935,0.0103961,0.0099238,0.00947518,0.00904889,0.00864369,0.00825839,0.00789189,0.00754316,0.00721123,0.00689521,0.00659423,0.00630751,0.00603429,0.00577386,0.00552558,0.0052888,0.00506295,0.00484747,0.00464183,0.00444555
0.172072,0.143385,0.126592,0.11377,0.103316,0.0944962,0.0868915,0.0802348,0.0743415,0.0690781,0.0643438,0.0600605,0.0561662,0.0526106,0.0493526,0.0463576,0.0435967,0.0410452,0.0386819,0.0364885,0.0344491,0.0325495,0.0307775,0.0291222,0.0275739,0.0261238,0.0247642,0.0234881,0.0222893,0.0211619,0.0201008,0.0191013,0.0181591,0.0172702,0.0164311,0.0156385,0.0148892,0.0141806,0.01351,0.0128751,0.0122737,0.0117036,0.0111631,0.0106503,0.0101637,0.00970169,0.00926286,0.0088459,0.00844957,0.00807272,0.00771428,0.00737323,0.00704862,0.00673958,0.00644526,0.00616489,0.00589773,0.00564309,0.00540033,0.00516882,0.00494801,0.00473734,0.0045363,0.00434441
0.169584,0.141115,0.124501,0.111835,0.101519,0.0928222,0.0853286,0.0787725,0.072971,0.0677917,0.0631347,0.0589228,0.0550944,0.0516,0.0483987,0.0454565,0.0427449,0.0402394,0.0379191,0.0357659,0.0337641,0.0319,0.0301612,0.0285371,0.0270182,0.0255958,0.0242623,0.0230109,0.0218352,0.0207298,0.0196894,0.0187096,0.0177859,0.0169146,0.0160922,0.0153153,0.014581,0.0138866,0.0132295,0.0126073,0.012018,0.0114595,0.0109299,0.0104276,0.00995088,0.00949828,0.00906843,0.00866001,0.00827182,0.00790272,0.00755166,0.00721764,0.00689974,0.00659709,0.00630888,0.00603433,0.00577272,0.00552338,0.00528568,0.005059,0.0048428,0.00463654,0.00443971,0.00425184
0.167294,0.139026,0.122579,0.110057,0.0998683,0.0912849,0.0838936,0.0774303,0.0717135,0.0666116,0.0620259,0.0578795,0.0541118,0.0506736,0.0475244,0.0446308,0.0419644,0.0395011,0.0372203,0.0351041,0.0331369,0.0313052,0.0295969,0.0280015,0.0265095,0.0251125,0.023803,0.0225741,0.0214197,0.0203344,0.0193131,0.0183512,0.0174445,0.0165893,0.0157821,0.0150197,0.0142991,0.0136177,0.0129729,0.0123624,0.0117842,0.0112363,0.0107167,0.0102239,0.00975629,0.00931233,0.00889068,0.00849008,0.00810933,0.00774732,0.00740301,0.00707544,0.00676367,0.00646688,0.00618424,0.00591501,0.00565848,0.00541399,0.00518091,0.00495866,0.00474667,0.00454443,0.00435145,0.00416726
0.165191,0.137109,0.120816,0.108427,0.0983555,0.0898767,0.0825795,0.0762015,0.0705625,0.0655318,0.0610113,0.0569252,0.0532131,0.0498264,0.0467251,0.043876,0.041251,0.0388264,0.0365817,0.0344993,0.0325638,0.0307618,0.0290815,0.0275123,0.026045,0.0246712,0.0233835,0.0221753,0.0210404,0.0199735,0.0189695,0.018024,0.0171329,0.0162924,0.0154992,0.0147499,0.0140419,0.0133723,0.0127387,0.012139,0.0115709,0.0110326,0.0105223,0.0100382,0.00957879,0.00914271,0.00872856,0.00833509,0.00796114,0.0076056,0.00726746,0.00694575,0.00663959,0.00634813,0.00607058,0.00580621,0.00555431,0.00531424,0.00508539,0.00486716,0.00465902,0.00446046,0.00427099,0.00409016
0.163266,0.135355,0.119204,0.106938,0.0969736,0.0885908,0.0813799,0.0750801,0.0695122,0.0645466,0.060086,0.0560549,0.0523937,0.0490541,0.0459966,0.0431881,0.040601,0.0382117,0.036,0.0339484,0.0320419,0.030267,0.0286121,0.0270668,0.025622,0.0242694,0.0230017,0.0218122,0.0206951,0.0196449,0.0186568,0.0177263,0.0168493,0.0160223,0.0152417,0.0145045,0.0138078,0.013149,0.0125257,0.0119357,0.0113769,0.0108474,0.0103453,0.00986917,0.00941734,0.00898843,0.0085811,0.00819413,0.00782636,0.00747671,0.00714418,0.00682782,0.00652675,0.00624015,0.00596723,0.00570728,0.0054596,0.00522355,0.00499854,0.00478398,0.00457934,0.00438412,0.00419784,0.00402006
0.161511,0.133758,0.117737,0.105582,0.0957165,0.0874213,0.0802892,0.0740607,0.0685577,0.0636514,0.0592453,0.0552644,0.0516495,0.0483528,0.045335,0.0425635,0.0400108,0.0376536,0.0354719,0.0334485,0.0315682,0.0298179,0.0281862,0.0266626,0.0252382,0.0239049,0.0226553,0.0214829,0.0203819,0.019347,0.0183732,0.0174563,0.0165922,0.0157773,0.0150082,0.0142819,0.0135956,0.0129466,0.0123327,0.0117515,0.011201,0.0106795,0.010185,0.00971601,0.00927102,0.00884861,0.00844748,0.00806639,0.00770423,0.00735992,0.00703247,0.00672096,0.00642451,0.00614231,0.0058736,0.00561765,0.00537379,0.00514139,0.00491986,0.00470862,0.00450715,0.00431497,0.00413158,0.00395656
0.159919,0.132311,0.116407,0.104354,0.0945782,0.0863626,0.0793021,0.0731383,0.0676942,0.0628418,0.058485,0.0545496,0.0509767,0.0477188,0.0447371,0.041999,0.0394775,0.0371494,0.0349949,0.0329968,0.0311403,0.0294123,0.0278015,0.0262976,0.0248917,0.0235757,0.0223425,0.0211856,0.0200992,0.019078,0.0181173,0.0172126,0.0163601,0.0155562,0.0147975,0.0140811,0.0134041,0.012764,0.0121584,0.0115852,0.0110423,0.0105279,0.0100403,0.00957783,0.00913902,0.00872248,0.00832692,0.00795116,0.00759405,0.00725456,0.00693171,0.00662457,0.00633229,0.00605407,0.00578914,0.00553681,0.0052964,0.00506729,0.00484889,0.00464066,0.00444205,0.0042526,0.00407183,0.0038993
0.158485,0.131006,0.11521,0.103249,0.0935538,0.0854101,0.0784141,0.0723087,0.0669177,0.0621139,0.0578016,0.0539071,0.050372,0.0471492,0.0441998,0.041492,0.0389985,0.0366966,0.0345664,0.0325912,0.0307561,0.0290482,0.0274562,0.0259699,0.0245806,0.0232803,0.0220618,0.0209188,0.0198455,0.0188366,0.0178875,0.0169939,0.0161519,0.0153578,0.0146085,0.0139009,0.0132323,0.0126001,0.0120021,0.011436,0.0109,0.010392,0.00991053,0.00945388,0.00902057,0.00860933,0.00821879,0.0078478,0.00749524,0.00716007,0.00684134,0.00653813,0.00624959,0.00597493,0.00571341,0.00546431,0.005227,0.00500084,0.00478526,0.00457971,0.00438368,0.00419668,0.00401825,0.00384796
0.157201,0.12984,0.11414,0.102262,0.0926387,0.0845594,0.0776212,0.0715682,0.0662247,0.0614642,0.0571918,0.0533339,0.0498326,0.046641,0.0437207,0.0410397,0.0385713,0.0362927,0.0341844,0.0322296,0.0304136,0.0287235,0.0271483,0.0256779,0.0243034,0.023017,0.0218116,0.020681,0.0196193,0.0186215,0.0176828,0.016799,0.0159663,0.015181,0.01444,0.0137403,0.0130792,0.0124542,0.0118628,0.0113032,0.0107732,0.010271,0.00979494,0.00934348,0.00891513,0.00850857,0.0081225,0.00775575,0.00740724,0.00707593,0.00676086,0.00646115,0.00617594,0.00590446,0.00564597,0.00539975,0.0051652,0.00494167,0.0047286,0.00452545,0.0043317,0.00414689,0.00397054,0.00380225
0.156064,0.128808,0.113193,0.101388,0.0918291,0.0838069,0.0769201,0.0709133,0.065612,0.06089,0.0566528,0.0528274,0.049356,0.046192,0.0432973,0.0406402,0.038194,0.035936,0.033847,0.0319102,0.0301111,0.0284369,0.0268765,0.0254199,0.0240586,0.0227845,0.0215908,0.0204711,0.0194197,0.0184316,0.0175021,0.016627,0.0158025,0.015025,0.0142914,0.0135987,0.0129441,0.0123253,0.01174,0.0111859,0.0106612,0.0101641,0.00969293,0.00924607,0.00882208,0.00841965,0.00803753,0.00767453,0.00732959,0.00700168,0.00668986,0.00639323,0.00611097,0.0058423,0.00558647,0.00534282,0.00511069,0.00488949,0.00467863,0.00447759,0.00428586,0.00410297,0.00392847,0.00376193
0.155068,0.127904,0.112364,0.100624,0.0911214,0.0831494,0.0763074,0.0703412,0.0650768,0.0603885,0.0561821,0.052385,0.0489398,0.0458,0.0429277,0.0402914,0.0378646,0.0356247,0.0335526,0.0316315,0.0298471,0.0281867,0.0266393,0.0251949,0.023845,0.0225817,0.0213981,0.0202879,0.0192456,0.018266,0.0173445,0.016477,0.0156596,0.014889,0.0141618,0.0134751,0.0128263,0.012213,0.0116328,0.0110837,0.0105637,0.010071,0.00960401,0.00916114,0.00874096,0.00834215,0.00796346,0.00760374,0.00726192,0.00693697,0.00662797,0.00633404,0.00605434,0.00578811,0.00553461,0.00529316,0.00506318,0.00484399,0.00463506,0.00443587,0.0042459,0.00406469,0.00389179,0.00372679
0.154211,0.127127,0.111652,0.0999667,0.0905129,0.0825843,0.075781,0.0698497,0.064617,0.0599576,0.0557778,0.0520051,0.0485824,0.0454634,0.0426104,0.039992,0.0375818,0.0353575,0.0332998,0.0313921,0.0296205,0.027972,0.0264357,0.0250018,0.0236617,0.0224077,0.0212328,0.0201308,0.0190962,0.0181239,0.0172093,0.0163483,0.0155371,0.0147722,0.0140505,0.0133691,0.0127253,0.0121166,0.0115409,0.010996,0.01048,0.00999112,0.00952773,0.00908829,0.00867134,0.00827566,0.00789993,0.00754302,0.00720386,0.00688146,0.00657489,0.00628326,0.00600577,0.00574163,0.00549014,0.00525062,0.00502243,0.00480497,0.00459771,0.00440009,0.00421147,0.00403186,0.00386034,0.00369666
0.153488,0.126473,0.111052,0.0994144,0.0900016,0.0821091,0.0753384,0.0694366,0.0642305,0.0595955,0.055438,0.0516859,0.0482821,0.0451806,0.0423439,0.0397405,0.0373444,0.0351331,0.0330874,0.0311914,0.0294303,0.0277918,0.0262648,0.0248397,0.0235079,0.0222613,0.0210938,0.0199989,0.0189708,0.0180046,0.0170958,0.0162403,0.0154343,0.0146743,0.0139572,0.0132802,0.0126405,0.0120358,0.0114638,0.0109224,0.0104098,0.00992408,0.00946372,0.00902716,0.00861298,0.00821988,0.00784662,0.00749207,0.00715516,0.00683489,0.00653035,0.00624066,0.00596501,0.00570264,0.00545282,0.0052149,0.00498824,0.00477225,0.00456637,0.00437008,0.00418288,0.00400432,0.00383396,0.00367138
0.152903,0.125941,0.110565,0.0989646,0.0895853,0.0817225,0.0749784,0.0691006,0.0639163,0.0593011,0.0551618,0.0514264,0.048038,0.0449508,0.0421272,0.0395361,0.0371513,0.0349505,0.0329149,0.031028,0.0292756,0.0276452,0.0261258,0.0247079,0.0233828,0.0221428,0.0209811,0.0198917,0.0188688,0.0179076,0.0170036,0.0161525,0.0153507,0.0145947,0.0138813,0.0132078,0.0125716,0.01197,0.0114011,0.0108626,0.0103527,0.00986959,0.0094117,0.00897748,0.00856553,0.00817455,0.0078033,0.00745066,0.00711558,0.00679705,0.00649416,0.00620605,0.0059319,0.00567095,0.0054225,0.00518588,0.00496046,0.00474565,0.00454091,0.00434569,0.00415953,0.00398195,0.00381252,0.00365083
0.152447,0.125528,0.110187,0.0986162,0.0892629,0.081423,0.0746995,0.0688402,0.0636728,0.059073,0.0549478,0.0512254,0.0478489,0.0447727,0.0419593,0.0393777,0.0370017,0.0348093,0.0327814,0.0309016,0.0291559,0.0275318,0.0260183,0.0246059,0.023286,0.0220509,0.0208938,0.0198087,0.0187899,0.0178326,0.0169322,0.0160845,0.015286,0.014533,0.0138226,0.0131519,0.0125182,0.0119192,0.0113526,0.0108163,0.0103085,0.00982744,0.00937145,0.00893904,0.00852882,0.00813947,0.00776978,0.00741863,0.00708495,0.00676777,0.00646616,0.00617926,0.00590627,0.00564643,0.00539904,0.00516343,0.00493896,0.00472507,0.0045212,0.00432682,0.00414146,0.00396464,0.00379591,0.00363494
0.152122,0.125234,0.109917,0.098368,0.0890331,0.0812097,0.0745008,0.0686548,0.0634994,0.0589107,0.0547955,0.0510823,0.0477143,0.044646,0.0418399,0.039265,0.0368953,0.0347087,0.0326863,0.0308116,0.0290707,0.027451,0.0259418,0.0245333,0.023217,0.0219854,0.0208317,0.0197496,0.0187338,0.0177792,0.0168814,0.0160362,0.0152399,0.0144892,0.0137809,0.0131121,0.0124803,0.011883,0.011318,0.0107834,0.0102771,0.00979744,0.00934281,0.00891169,0.00850269,0.00811451,0.00774593,0.00739583,0.00706316,0.00674693,0.00644624,0.00616021,0.00588805,0.005629,0.00538235,0.00514746,0.00492368,0.00471044,0.00450718,0.0043134,0.0041286,0.00395232,0.00378414,0.00362364
0.151927,0.125057,0.109756,0.0982192,0.0888955,0.0810818,0.0743818,0.0685437,0.0633956,0.0588133,0.0547042,0.0509965,0.0476336,0.04457,0.0417683,0.0391971,0.0368316,0.0346485,0.0326293,0.0307577,0.0290197,0.0274027,0.0258959,0.0244898,0.0231758,0.0219462,0.0207944,0.0197142,0.0187002,0.0177472,0.0168509,0.0160072,0.0152124,0.0144629,0.0137558,0.0130883,0.0124575,0.0118613,0.0112974,0.0107637,0.0102583,0.00977948,0.00932565,0.00889532,0.00848705,0.00809956,0.00773165,0.00738217,0.0070501,0.00673445,0.0064343,0.0061488,0.00587713,0.00561855,0.00537236,0.00513789,0.00491452,0.00470167,0.00449879,0.00430536,0.0041209,0.00394495,0.00377708,0.00361687
0.151862,0.124998,0.109702,0.0981697,0.0888496,0.0810393,0.0743422,0.0685067,0.063361,0.058781,0.0546738,0.050968,0.0476068,0.0445448,0.0417445,0.039175,0.0368104,0.0346284,0.0326103,0.0307398,0.0290027,0.0273866,0.0258807,0.0244753,0.023162,0.0219332,0.0207821,0.0197025,0.018689,0.0177366,0.0168408,0.0159976,0.0152032,0.0144542,0.0137475,0.0130803,0.01245,0.0118541,0.0112905,0.0107571,0.010252,0.0097735,0.00931995,0.00888987,0.00848184,0.00809459,0.0077269,0.00737764,0.00704577,0.00673031,0.00643034,0.006145,0.0058735,0.00561508,0.00536904,0.00513471,0.00491148,0.00469876,0.004496,0.00430269,0.00411834,0.0039425,0.00377472,0.00361462